{"resourceType":"Patient","id":"12345","meta":{"versionId":"1","lastUpdated":"2025-04-15T15:45:00.000Z"},"text":{"status":"generated","div":"<div xmlns=\"http://www.w3.org/1999/xhtml\">Jane Doe</div>"},"identifier":[{"system":"http://example.org/fhir/identifier/mrn","value":"67890"}],"active":true,"name":[{"use":"official","family":"Doe","given":["Jane"]}],"gender":"female","birthDate":"1985-02-03","address":[{"use":"home","line":["456 Oak Ave"],"city":"Someville","state":"NY","postalCode":"10001","country":"USA"}]}
{"resourceType":"Encounter","id":"enc001","meta":{"versionId":"1","lastUpdated":"2025-04-16T10:12:00.000Z"},"status":"finished","class":{"system":"http://terminology.hl7.org/CodeSystem/v3-ActCode","code":"AMB","display":"ambulatory"},"subject":{"reference":"Patient/12345"},"participant":[{"individual":{"reference":"Practitioner/87654"}}],"period":{"start":"2025-04-16T09:30:00-05:00","end":"2025-04-16T10:00:00-05:00"},"reasonCode":[{"coding":[{"system":"http://snomed.info/sct","code":"55822004","display":"Hyperlipidemia"}]}]}
{"resourceType":"Observation","id":"lipid-panel","meta":{"versionId":"1","lastUpdated":"2025-04-16T11:20:00.000Z"},"status":"final","category":[{"coding":[{"system":"http://terminology.hl7.org/CodeSystem/observation-category","code":"laboratory","display":"Laboratory"}]}],"code":{"coding":[{"system":"http://loinc.org","code":"57698-3","display":"Lipid panel with direct LDL - Serum or Plasma"}],"text":"Lipid Panel"},"subject":{"reference":"Patient/12345"},"encounter":{"reference":"Encounter/enc001"},"effectiveDateTime":"2025-04-16T10:15:00-05:00","performer":[{"reference":"Practitioner/87654"}]}
{"resourceType":"Practitioner","id":"87654","meta":{"versionId":"1","lastUpdated":"2025-01-10T08:40:00.000Z"},"identifier":[{"system":"http://example.org/fhir/identifier/npi","value":"9876543210"}],"active":true,"name":[{"family":"Johnson","given":["Robert"],"prefix":["Dr"]}],"telecom":[{"system":"phone","value":"555-123-4567","use":"work"},{"system":"email","value":"robert.johnson@example.org","use":"work"}],"address":[{"use":"work","line":["123 Medical Center Dr"],"city":"Someville","state":"NY","postalCode":"10001","country":"USA"}],"gender":"male","birthDate":"1975-06-20"}